[
  [
    {
      "success": true,
      "timeout": false,
      "failed_images": [],
      "failed_audio": [],
      "failed_video": [],
      "trial_type": "preload",
      "trial_index": 0,
      "plugin_version": "2.0.0",
      "time_elapsed": 39
    },
    {
      "user_input": "Apple",
      "selected_gender": "Masculine",
      "choices": [
        "Masculine",
        "Feminine",
        "Neuter",
        "None"
      ],
      "rt": 14709,
      "stimulus": "img/apple.jpg",
      "response": 0,
      "trial_type": "image-button-response",
      "trial_index": 1,
      "plugin_version": null,
      "time_elapsed": 14749
    },
    {
      "user_input": "Book",
      "selected_gender": "Masculine",
      "choices": [
        "Masculine",
        "Feminine",
        "Neuter",
        "None"
      ],
      "rt": 3259,
      "stimulus": "img/book.webp",
      "response": 0,
      "trial_type": "image-button-response",
      "trial_index": 2,
      "plugin_version": null,
      "time_elapsed": 18010
    },
    {
      "user_input": "",
      "selected_gender": "Masculine",
      "choices": [
        "Masculine",
        "Feminine",
        "Neuter",
        "None"
      ],
      "rt": 189,
      "stimulus": "img/bottle.jpeg",
      "response": 0,
      "trial_type": "image-button-response",
      "trial_index": 3,
      "plugin_version": null,
      "time_elapsed": 18201
    },
    {
      "user_input": "",
      "selected_gender": "Masculine",
      "choices": [
        "Masculine",
        "Feminine",
        "Neuter",
        "None"
      ],
      "rt": 166,
      "stimulus": "img/bridge.webp",
      "response": 0,
      "trial_type": "image-button-response",
      "trial_index": 4,
      "plugin_version": null,
      "time_elapsed": 18368
    },
    {
      "user_input": "",
      "selected_gender": "Masculine",
      "choices": [
        "Masculine",
        "Feminine",
        "Neuter",
        "None"
      ],
      "rt": 144,
      "stimulus": "img/car.jpg",
      "response": 0,
      "trial_type": "image-button-response",
      "trial_index": 5,
      "plugin_version": null,
      "time_elapsed": 18514
    },
    {
      "user_input": "",
      "selected_gender": "Masculine",
      "choices": [
        "Masculine",
        "Feminine",
        "Neuter",
        "None"
      ],
      "rt": 132,
      "stimulus": "img/cat.jpeg",
      "response": 0,
      "trial_type": "image-button-response",
      "trial_index": 6,
      "plugin_version": null,
      "time_elapsed": 18647
    },
    {
      "user_input": "",
      "selected_gender": "Masculine",
      "choices": [
        "Masculine",
        "Feminine",
        "Neuter",
        "None"
      ],
      "rt": 137,
      "stimulus": "img/chair.jpg",
      "response": 0,
      "trial_type": "image-button-response",
      "trial_index": 7,
      "plugin_version": null,
      "time_elapsed": 18785
    },
    {
      "user_input": "",
      "selected_gender": "Masculine",
      "choices": [
        "Masculine",
        "Feminine",
        "Neuter",
        "None"
      ],
      "rt": 131,
      "stimulus": "img/clock.jpg",
      "response": 0,
      "trial_type": "image-button-response",
      "trial_index": 8,
      "plugin_version": null,
      "time_elapsed": 18917
    },
    {
      "user_input": "",
      "selected_gender": "Masculine",
      "choices": [
        "Masculine",
        "Feminine",
        "Neuter",
        "None"
      ],
      "rt": 121,
      "stimulus": "img/cruise-ship.png",
      "response": 0,
      "trial_type": "image-button-response",
      "trial_index": 9,
      "plugin_version": null,
      "time_elapsed": 19040
    },
    {
      "user_input": "",
      "selected_gender": "Masculine",
      "choices": [
        "Masculine",
        "Feminine",
        "Neuter",
        "None"
      ],
      "rt": 126,
      "stimulus": "img/cup.jpg",
      "response": 0,
      "trial_type": "image-button-response",
      "trial_index": 10,
      "plugin_version": null,
      "time_elapsed": 19168
    },
    {
      "user_input": "",
      "selected_gender": "Masculine",
      "choices": [
        "Masculine",
        "Feminine",
        "Neuter",
        "None"
      ],
      "rt": 127,
      "stimulus": "img/dog.jpg",
      "response": 0,
      "trial_type": "image-button-response",
      "trial_index": 11,
      "plugin_version": null,
      "time_elapsed": 19296
    },
    {
      "user_input": "",
      "selected_gender": "Masculine",
      "choices": [
        "Masculine",
        "Feminine",
        "Neuter",
        "None"
      ],
      "rt": 116,
      "stimulus": "img/flower.jpeg",
      "response": 0,
      "trial_type": "image-button-response",
      "trial_index": 12,
      "plugin_version": null,
      "time_elapsed": 19414
    },
    {
      "user_input": "",
      "selected_gender": "Masculine",
      "choices": [
        "Masculine",
        "Feminine",
        "Neuter",
        "None"
      ],
      "rt": 104,
      "stimulus": "img/house.jpg",
      "response": 0,
      "trial_type": "image-button-response",
      "trial_index": 13,
      "plugin_version": null,
      "time_elapsed": 19519
    },
    {
      "user_input": "",
      "selected_gender": "Masculine",
      "choices": [
        "Masculine",
        "Feminine",
        "Neuter",
        "None"
      ],
      "rt": 119,
      "stimulus": "img/moon.jpg",
      "response": 0,
      "trial_type": "image-button-response",
      "trial_index": 14,
      "plugin_version": null,
      "time_elapsed": 19638
    },
    {
      "user_input": "",
      "selected_gender": "Masculine",
      "choices": [
        "Masculine",
        "Feminine",
        "Neuter",
        "None"
      ],
      "rt": 143,
      "stimulus": "img/pen.jpg",
      "response": 0,
      "trial_type": "image-button-response",
      "trial_index": 15,
      "plugin_version": null,
      "time_elapsed": 19782
    },
    {
      "user_input": "",
      "selected_gender": "Masculine",
      "choices": [
        "Masculine",
        "Feminine",
        "Neuter",
        "None"
      ],
      "rt": 136,
      "stimulus": "img/sun.jpg",
      "response": 0,
      "trial_type": "image-button-response",
      "trial_index": 16,
      "plugin_version": null,
      "time_elapsed": 19919
    },
    {
      "user_input": "",
      "selected_gender": "Masculine",
      "choices": [
        "Masculine",
        "Feminine",
        "Neuter",
        "None"
      ],
      "rt": 147,
      "stimulus": "img/table.jpg",
      "response": 0,
      "trial_type": "image-button-response",
      "trial_index": 17,
      "plugin_version": null,
      "time_elapsed": 20068
    },
    {
      "user_input": "",
      "selected_gender": "Masculine",
      "choices": [
        "Masculine",
        "Feminine",
        "Neuter",
        "None"
      ],
      "rt": 138,
      "stimulus": "img/tree.jpeg",
      "response": 0,
      "trial_type": "image-button-response",
      "trial_index": 18,
      "plugin_version": null,
      "time_elapsed": 20207
    },
    {
      "user_input": "",
      "selected_gender": "Masculine",
      "choices": [
        "Masculine",
        "Feminine",
        "Neuter",
        "None"
      ],
      "rt": 143,
      "stimulus": "img/window.JPG",
      "response": 0,
      "trial_type": "image-button-response",
      "trial_index": 19,
      "plugin_version": null,
      "time_elapsed": 20351
    }
  ]
]