[
  [
    {
      "success": true,
      "timeout": false,
      "failed_images": [],
      "failed_audio": [],
      "failed_video": [],
      "trial_type": "preload",
      "trial_index": 0,
      "plugin_version": "2.0.0",
      "time_elapsed": 49
    },
    {
      "selected_gender": "Feminine",
      "choices": [
        "Masculine",
        "Feminine",
        "Neuter",
        "None"
      ],
      "rt": 458,
      "stimulus": "img/table.jpg",
      "response": 1,
      "trial_type": "image-button-response",
      "trial_index": 1,
      "plugin_version": null,
      "time_elapsed": 509
    },
    {
      "selected_gender": "Feminine",
      "choices": [
        "Masculine",
        "Feminine",
        "Neuter",
        "None"
      ],
      "rt": 125,
      "stimulus": "img/cruise-ship.png",
      "response": 1,
      "trial_type": "image-button-response",
      "trial_index": 2,
      "plugin_version": null,
      "time_elapsed": 637
    },
    {
      "selected_gender": "Feminine",
      "choices": [
        "Masculine",
        "Feminine",
        "Neuter",
        "None"
      ],
      "rt": 112,
      "stimulus": "img/sun.jpg",
      "response": 1,
      "trial_type": "image-button-response",
      "trial_index": 3,
      "plugin_version": null,
      "time_elapsed": 750
    },
    {
      "selected_gender": "Feminine",
      "choices": [
        "Masculine",
        "Feminine",
        "Neuter",
        "None"
      ],
      "rt": 135,
      "stimulus": "img/moon.jpg",
      "response": 1,
      "trial_type": "image-button-response",
      "trial_index": 4,
      "plugin_version": null,
      "time_elapsed": 887
    },
    {
      "selected_gender": "Feminine",
      "choices": [
        "Masculine",
        "Feminine",
        "Neuter",
        "None"
      ],
      "rt": 110,
      "stimulus": "img/car.jpg",
      "response": 1,
      "trial_type": "image-button-response",
      "trial_index": 5,
      "plugin_version": null,
      "time_elapsed": 999
    },
    {
      "selected_gender": "Feminine",
      "choices": [
        "Masculine",
        "Feminine",
        "Neuter",
        "None"
      ],
      "rt": 121,
      "stimulus": "img/cat.jpeg",
      "response": 1,
      "trial_type": "image-button-response",
      "trial_index": 6,
      "plugin_version": null,
      "time_elapsed": 1123
    },
    {
      "selected_gender": "Feminine",
      "choices": [
        "Masculine",
        "Feminine",
        "Neuter",
        "None"
      ],
      "rt": 127,
      "stimulus": "img/chair.jpg",
      "response": 1,
      "trial_type": "image-button-response",
      "trial_index": 7,
      "plugin_version": null,
      "time_elapsed": 1251
    },
    {
      "selected_gender": "Feminine",
      "choices": [
        "Masculine",
        "Feminine",
        "Neuter",
        "None"
      ],
      "rt": 123,
      "stimulus": "img/clock.jpg",
      "response": 1,
      "trial_type": "image-button-response",
      "trial_index": 8,
      "plugin_version": null,
      "time_elapsed": 1375
    },
    {
      "selected_gender": "Feminine",
      "choices": [
        "Masculine",
        "Feminine",
        "Neuter",
        "None"
      ],
      "rt": 121,
      "stimulus": "img/cup.jpg",
      "response": 1,
      "trial_type": "image-button-response",
      "trial_index": 9,
      "plugin_version": null,
      "time_elapsed": 1498
    },
    {
      "selected_gender": "Feminine",
      "choices": [
        "Masculine",
        "Feminine",
        "Neuter",
        "None"
      ],
      "rt": 129,
      "stimulus": "img/dog.jpg",
      "response": 1,
      "trial_type": "image-button-response",
      "trial_index": 10,
      "plugin_version": null,
      "time_elapsed": 1630
    },
    {
      "selected_gender": "Feminine",
      "choices": [
        "Masculine",
        "Feminine",
        "Neuter",
        "None"
      ],
      "rt": 127,
      "stimulus": "img/flower.jpeg",
      "response": 1,
      "trial_type": "image-button-response",
      "trial_index": 11,
      "plugin_version": null,
      "time_elapsed": 1759
    },
    {
      "selected_gender": "Feminine",
      "choices": [
        "Masculine",
        "Feminine",
        "Neuter",
        "None"
      ],
      "rt": 138,
      "stimulus": "img/house.jpg",
      "response": 1,
      "trial_type": "image-button-response",
      "trial_index": 12,
      "plugin_version": null,
      "time_elapsed": 1898
    },
    {
      "selected_gender": "Feminine",
      "choices": [
        "Masculine",
        "Feminine",
        "Neuter",
        "None"
      ],
      "rt": 156,
      "stimulus": "img/pen.jpg",
      "response": 1,
      "trial_type": "image-button-response",
      "trial_index": 13,
      "plugin_version": null,
      "time_elapsed": 2054
    },
    {
      "selected_gender": "Feminine",
      "choices": [
        "Masculine",
        "Feminine",
        "Neuter",
        "None"
      ],
      "rt": 180,
      "stimulus": "img/tree.jpeg",
      "response": 1,
      "trial_type": "image-button-response",
      "trial_index": 14,
      "plugin_version": null,
      "time_elapsed": 2236
    },
    {
      "selected_gender": "Feminine",
      "choices": [
        "Masculine",
        "Feminine",
        "Neuter",
        "None"
      ],
      "rt": 225,
      "stimulus": "img/window.JPG",
      "response": 1,
      "trial_type": "image-button-response",
      "trial_index": 15,
      "plugin_version": null,
      "time_elapsed": 2463
    }
  ]
]